Folder: Robot-arm-3D-printing/path

Note: README.md
# Robot-arm-3D-printing

### 主控程序 main.py
输入重采样后的模型数据，连接机械臂，定位打印平面，计算打印平面的转换矩阵，计算路径时间，根据时间间隔发送机械臂运动控制代码。

### 测试程序 test.py
测试程序直接输入了一个平面R，不需要再进行平面定位。发送控制代码处要手动写入α、β、γ。
 
### 重采样过程 unit_test_resample.py
使用向量夹角公式判断两条线段是否位于同一条直线，若位于同一直线，则删去中间点，不位于同一直线，则保留。以此遍历整个路径，去除直线上多余的点。

### 从Gcode转换到机械臂打印平台加工控制代码的转换过程 estimate_plane.py, Coordinate_transformation.py
使用SuCam生成连续路径Gcode  
(1)经过重采样生成模型的打印数据  
(2)经过平面拟合和转换矩阵计算得到转换矩阵R  
(3)将打印数据与转换矩阵相乘得到机械臂坐标系下的数据[x, y, z]，添加α、β、γ，得到[x, y, z, α, β, γ]  
(4)配合机械臂移动指令movej、movel、servoj等生成机械臂控制代码  
其中α、β、γ为采集平面点坐标时第一个点的数据。

### 实验数据
1）stl模型 /example  
2）stl对应路径代码 /path  #.xlsx文件为重采样后数据  
3）stl对应控制代码 控制代码为在线生成

File: Tensile specimen.txt
0.5000 0.5000 0.3000
168.9000 12.5000 0.3000
14.5000 1.3000 0.3000
151.7000 11.7000 0.3000
34.5000 2.1000 0.3000
128.5000 10.9000 0.3000
60.9000 2.9000 0.3000
98.9000 10.1000 0.3000
93.7000 3.7000 0.3000
62.9000 9.3000 0.3000
132.9000 4.5000 0.3000
20.5000 8.5000 0.3000
164.1000 7.7000 0.3000
38.1000 6.1000 0.3000
108.9000 6.9000 0.3000
94.1000 7.3000 0.3000
54.5000 5.7000 0.3000
146.1000 8.1000 0.3000
5.7000 4.9000 0.3000
155.7000 4.1000 0.3000
38.5000 9.7000 0.3000
119.7000 3.3000 0.3000
71.3000 10.5000 0.3000
90.1000 2.5000 0.3000
97.7000 11.3000 0.3000
66.9000 1.7000 0.3000
118.1000 12.1000 0.3000
49.7000 0.9000 0.3000
142.9000 0.5000 0.6000
26.5000 12.5000 0.6000
156.9000 1.3000 0.6000
9.3000 11.7000 0.6000
173.3000 5.7000 0.6000
10.9000 2.9000 0.6000
148.9000 10.1000 0.6000
43.7000 3.7000 0.6000
112.9000 9.3000 0.6000
82.9000 4.5000 0.6000
70.5000 8.5000 0.6000
128.5000 5.3000 0.6000
21.7000 7.7000 0.6000
158.9000 6.9000 0.6000
44.1000 7.3000 0.6000
104.5000 5.7000 0.6000
96.1000 8.1000 0.6000
55.7000 4.9000 0.6000
141.7000 8.9000 0.6000
13.3000 4.1000 0.6000
169.7000 3.3000 0.6000
21.3000 10.5000 0.6000
140.1000 2.5000 0.6000
47.7000 11.3000 0.6000
116.9000 1.7000 0.6000
68.1000 12.1000 0.6000
99.7000 0.9000 0.6000
92.9000 0.5000 0.9000
76.5000 12.5000 0.9000
106.9000 1.3000 0.9000
59.3000 11.7000 0.9000
126.9000 2.1000 0.9000
36.1000 10.9000 0.9000
153.3000 2.9000 0.9000
6.5000 10.1000 0.9000
162.9000 9.3000 0.9000
32.9000 4.5000 0.9000
120.5000 8.5000 0.9000
78.5000 5.3000 0.9000
71.7000 7.7000 0.9000
130.5000 6.1000 0.9000
16.5000 6.9000 0.9000
154.5000 5.7000 0.9000
46.1000 8.1000 0.9000
105.7000 4.9000 0.9000
91.7000 8.9000 0.9000
63.3000 4.1000 0.9000
130.9000 9.7000 0.9000
27.3000 3.3000 0.9000
163.7000 10.5000 0.9000
1.7000 7.3000 0.9000
166.9000 1.7000 0.9000
18.1000 12.1000 0.9000
149.7000 0.9000 0.9000
42.9000 0.5000 1.2000
126.5000 12.5000 1.2000
56.9000 1.3000 1.2000
109.3000 11.7000 1.2000
76.9000 2.1000 1.2000
86.1000 10.9000 1.2000
103.3000 2.9000 1.2000
56.5000 10.1000 1.2000
136.1000 3.7000 1.2000
20.5000 9.3000 1.2000
170.5000 8.5000 1.2000
28.5000 5.3000 1.2000
121.7000 7.7000 1.2000
80.5000 6.1000 1.2000
66.5000 6.9000 1.2000
136.5000 7.3000 1.2000
12.1000 5.7000 1.2000
155.7000 4.9000 1.2000
41.7000 8.9000 1.2000
113.3000 4.1000 1.2000
80.9000 9.7000 1.2000
77.3000 3.3000 1.2000
113.7000 10.5000 1.2000
47.7000 2.5000 1.2000
140.1000 11.3000 1.2000
24.5000 1.7000 1.2000
160.5000 12.1000 1.2000
7.3000 0.9000 1.2000
174.9000 10.9000 1.5000
6.9000 1.3000 1.5000
159.3000 11.7000 1.5000
26.9000 2.1000 1.5000
136.1000 10.9000 1.5000
53.3000 2.9000 1.5000
106.5000 10.1000 1.5000
86.1000 3.7000 1.5000
70.5000 9.3000 1.5000
125.3000 4.5000 1.5000
28.1000 8.5000 1.5000
170.1000 6.1000 1.5000
30.5000 6.1000 1.5000
116.5000 6.9000 1.5000
86.5000 7.3000 1.5000
62.1000 5.7000 1.5000
138.5000 8.1000 1.5000
13.3000 4.9000 1.5000
163.3000 4.1000 1.5000
30.9000 9.7000 1.5000
127.3000 3.3000 1.5000
63.7000 10.5000 1.5000
97.7000 2.5000 1.5000
90.1000 11.3000 1.5000
74.5000 1.7000 1.5000
110.5000 12.1000 1.5000
57.3000 0.9000 1.5000
135.3000 0.5000 1.8000
34.1000 12.5000 1.8000
149.3000 1.3000 1.8000
16.9000 11.7000 1.8000
169.3000 2.1000 1.8000
3.0333 2.9000 1.8000
156.5000 10.1000 1.8000
36.1000 3.7000 1.8000
120.5000 9.3000 1.8000
75.3000 4.5000 1.8000
78.1000 8.5000 1.8000
120.9000 5.3000 1.8000
29.3000 7.7000 1.8000
166.5000 6.9000 1.8000
36.5000 7.3000 1.8000
112.1000 5.7000 1.8000
88.5000 8.1000 1.8000
63.3000 4.9000 1.8000
134.1000 8.9000 1.8000
20.9000 4.1000 1.8000
172.1000 8.5000 1.8000
13.7000 10.5000 1.8000
147.7000 2.5000 1.8000
40.1000 11.3000 1.8000
124.5000 1.7000 1.8000
60.5000 12.1000 1.8000
107.3000 0.9000 1.8000
85.3000 0.5000 2.1000
84.1000 12.5000 2.1000
99.3000 1.3000 2.1000
66.9000 11.7000 2.1000
119.3000 2.1000 2.1000
43.7000 10.9000 2.1000
145.7000 2.9000 2.1000
14.1000 10.1000 2.1000
170.5000 9.3000 2.1000
25.3000 4.5000 2.1000
128.1000 8.5000 2.1000
70.9000 5.3000 2.1000
79.3000 7.7000 2.1000
122.9000 6.1000 2.1000
24.1000 6.9000 2.1000
162.1000 5.7000 2.1000
38.5000 8.1000 2.1000
113.3000 4.9000 2.1000
84.1000 8.9000 2.1000
70.9000 4.1000 2.1000
123.3000 9.7000 2.1000
34.9000 3.3000 2.1000
156.1000 10.5000 2.1000
5.3000 2.5000 2.1000
173.7000 2.5000 2.1000
10.5000 12.1000 2.1000
157.3000 0.9000 2.1000
35.3000 0.5000 2.4000
134.1000 12.5000 2.4000
49.3000 1.3000 2.4000
116.9000 11.7000 2.4000
69.3000 2.1000 2.4000
93.7000 10.9000 2.4000
95.7000 2.9000 2.4000
64.1000 10.1000 2.4000
128.5000 3.7000 2.4000
28.1000 9.3000 2.4000
167.7000 4.5000 2.4000
20.9000 5.3000 2.4000
129.3000 7.7000 2.4000
72.9000 6.1000 2.4000
74.1000 6.9000 2.4000
128.9000 7.3000 2.4000
19.7000 5.7000 2.4000
163.3000 4.9000 2.4000
34.1000 8.9000 2.4000
120.9000 4.1000 2.4000
73.3000 9.7000 2.4000
84.9000 3.3000 2.4000
106.1000 10.5000 2.4000
55.3000 2.5000 2.4000
132.5000 11.3000 2.4000
32.1000 1.7000 2.4000
152.9000 12.1000 2.4000
14.9000 0.9000 2.4000
174.9000 3.3000 2.7000
0.5000 3.7000 2.7000
166.9000 11.7000 2.7000
19.3000 2.1000 2.7000
143.7000 10.9000 2.7000
45.7000 2.9000 2.7000
114.1000 10.1000 2.7000
78.5000 3.7000 2.7000
78.1000 9.3000 2.7000
117.7000 4.5000 2.7000
35.7000 8.5000 2.7000
163.3000 5.3000 2.7000
22.9000 6.1000 2.7000
124.1000 6.9000 2.7000
78.9000 7.3000 2.7000
69.7000 5.7000 2.7000
130.9000 8.1000 2.7000
20.9000 4.9000 2.7000
170.9000 4.1000 2.7000
23.3000 9.7000 2.7000
134.9000 3.3000 2.7000
56.1000 10.5000 2.7000
105.3000 2.5000 2.7000
82.5000 11.3000 2.7000
82.1000 1.7000 2.7000
102.9000 12.1000 2.7000
64.9000 0.9000 2.7000
127.7000 0.5000 3.0000
41.7000 12.5000 3.0000
141.7000 1.3000 3.0000
24.5000 11.7000 3.0000
161.7000 2.1000 3.0000
2.1000 10.1000 3.0000
164.1000 10.1000 3.0000
28.5000 3.7000 3.0000
128.1000 9.3000 3.0000
67.7000 4.5000 3.0000
85.7000 8.5000 3.0000
113.3000 5.3000 3.0000
36.9000 7.7000 3.0000
165.3000 6.1000 3.0000
28.9000 7.3000 3.0000
119.7000 5.7000 3.0000
80.9000 8.1000 3.0000
70.9000 4.9000 3.0000
126.5000 8.9000 3.0000
28.5000 4.1000 3.0000
165.7000 9.7000 3.0000
6.1000 10.5000 3.0000
155.3000 2.5000 3.0000
32.5000 11.3000 3.0000
132.1000 1.7000 3.0000
52.9000 12.1000 3.0000
114.9000 0.9000 3.0000
77.7000 0.5000 3.3000
91.7000 12.5000 3.3000
91.7000 1.3000 3.3000
74.5000 11.7000 3.3000
111.7000 2.1000 3.3000
51.3000 10.9000 3.3000
138.1000 2.9000 3.3000
21.7000 10.1000 3.3000
170.9000 3.7000 3.3000
17.7000 4.5000 3.3000
135.7000 8.5000 3.3000
63.3000 5.3000 3.3000
86.9000 7.7000 3.3000
115.3000 6.1000 3.3000
31.7000 6.9000 3.3000
169.5667 5.8333 3.3000
30.9000 8.1000 3.3000
120.9000 4.9000 3.3000
76.5000 8.9000 3.3000
78.5000 4.1000 3.3000
115.7000 9.7000 3.3000
42.5000 3.3000 3.3000
148.5000 10.5000 3.3000
12.9000 2.5000 3.3000
173.7000 10.1000 3.3000
2.9000 12.1000 3.3000
164.9000 0.9000 3.3000
0.5000 0.9000 3.3000